Ion Number	Delta E (keV)	E_res (keV)
1	1330.09	9.59
2	1290.26	49.43
3	1300.05	29.70
4	1311.38	19.98
5	1311.47	9.93
6	1320.74	29.54
7	1301.68	29.53
8	1300.07	23.66
9	1301.05	19.78
10	1340.80	9.94
11	1320.10	29.90
12	1311.48	20.00
13	1321.10	9.90
14	1311.09	18.62
15	1311.16	19.65
16	1331.11	19.96
17	1300.65	39.98
19	1311.58	29.12
22	1311.47	19.78
23	1340.48	9.94
24	1301.11	29.84
26	1300.68	49.40
28	1300.29	29.59
29	1301.12	29.62
31	1310.43	29.93
32	1300.50	29.87
34	1320.51	19.70
35	1320.17	1.63
36	1331.00	9.90
37	1310.73	29.83
38	1310.77	29.75
39	1311.46	29.60
42	1290.85	39.62
43	1320.39	29.66
44	1280.62	39.42
45	1310.23	29.74
46	1330.72	9.90
48	1320.89	19.73
49	1340.27	19.80
50	1310.04	29.80
51	1320.49	9.84
52	1320.06	9.81
53	1290.92	39.96
54	1330.12	9.83
55	1310.81	19.76
56	1281.27	49.64
57	1320.79	19.96
58	1310.01	28.85
59	1321.33	29.92
62	1311.22	29.66
63	1310.11	19.93
64	1310.32	29.28
65	1320.90	29.99
66	1320.45	19.74
68	1320.00	9.82
69	1320.59	19.87
70	1290.89	39.51
72	1300.50	39.99
74	1320.91	29.79
75	1311.16	29.77
76	1320.74	9.79
77	1310.51	29.73
78	1311.01	19.88
79	1330.94	19.66
80	1330.44	19.81
81	1310.82	19.95
82	1320.08	24.88
83	1320.67	19.63
84	1290.39	39.95
85	1320.47	18.71
88	1320.64	5.76
90	1320.14	9.93
93	1330.01	9.87
95	1310.94	29.69
96	1320.05	19.96
100	1330.43	9.18
101	1310.85	29.90
103	1307.44	19.73
104	1321.35	19.96
105	1340.58	9.80
107	1310.84	19.78
108	1320.66	19.86
109	1311.54	29.57
110	1340.10	9.84
111	1320.12	29.97
112	1330.57	16.83
113	1330.71	9.98
114	1321.40	19.97
115	1330.32	10.00
116	1320.02	19.97
118	1330.54	9.88
119	1330.22	19.75
120	1300.44	29.76
122	1300.06	29.88
124	1290.99	39.56
125	1310.12	29.92
126	1310.76	19.90
128	1320.54	19.67
129	1310.34	19.70
130	1321.06	9.97
132	1320.70	19.87
133	1310.27	19.77
134	1300.16	29.83
139	1320.78	9.84
140	1310.41	29.84
142	1300.44	39.23
143	1320.46	9.07
144	1300.77	29.79
146	1301.17	26.48
149	1320.76	29.54
150	1300.61	39.46
151	1301.12	39.97
153	1280.88	49.53
154	1310.13	29.79
155	1290.02	29.55
156	1301.48	29.89
157	1310.84	29.73
159	1330.31	19.98
160	1292.06	39.81
161	1326.30	10.00
163	1300.31	39.36
165	1320.50	9.98
169	1330.16	9.98
170	1291.41	39.57
172	1290.32	29.42
173	1300.12	39.71
175	1300.52	39.56
176	1300.02	29.18
177	1320.76	19.78
178	1320.17	9.96
179	1301.70	39.35
182	1320.21	18.83
184	1300.41	39.90
185	1311.02	23.12
187	1300.91	39.56
188	1321.41	29.84
190	1300.44	39.77
191	1311.58	19.81
192	1300.42	39.50
193	1320.30	19.99
194	1320.34	10.00
196	1300.56	29.79
200	1300.18	29.98
201	1320.19	15.80
202	1291.03	39.94
204	1330.07	19.69
207	1301.74	29.85
208	1310.68	29.55
209	1320.28	9.97
210	1310.46	19.81
213	1300.07	29.95
214	1310.61	19.97
215	1320.43	9.97
216	1310.27	29.61
217	1330.69	8.34
218	1330.25	9.93
219	1321.05	19.65
222	1320.72	9.44
224	1300.18	39.73
225	1300.69	38.92
226	1310.06	19.87
227	1320.32	29.72
229	1311.11	19.69
230	1331.08	19.77
231	1330.26	8.42
232	1320.48	19.93
234	1320.08	19.69
235	1290.33	39.68
236	1300.70	29.75
238	1311.53	29.59
239	1320.65	19.64
240	1300.71	36.75
241	1290.34	39.62
242	1340.16	9.96
243	1320.90	19.73
244	1300.31	19.80
246	1321.51	19.83
247	1310.37	29.57
248	1310.57	19.83
249	1281.32	49.66
250	1300.77	23.42
251	1310.94	29.77
252	1320.93	29.08
253	1320.13	9.86
254	1282.14	29.43
255	1320.10	19.97
256	1320.77	29.60
257	1320.73	29.88
259	1330.27	9.87
261	1300.36	39.86
262	1320.34	9.99
264	1300.61	29.83
265	1310.80	29.97
266	1310.65	29.89
268	1320.39	29.93
270	1300.23	39.95
272	1310.64	29.97
273	1330.15	19.72
274	1300.61	29.90
275	1331.17	9.89
277	1300.86	39.83
279	1310.25	30.00
280	1310.65	29.59
281	1310.67	19.56
282	1320.49	29.22
283	1300.01	39.99
285	1300.44	40.00
286	1310.33	19.84
287	1330.82	19.93
289	1321.37	3.27
290	1300.22	39.52
291	1330.46	11.73
293	1330.14	19.68
294	1331.69	9.95
295	1320.93	19.99
296	1310.36	27.97
297	1300.29	29.63
298	1311.35	29.74
299	1310.64	29.80
301	1310.08	29.98
302	1291.30	29.85
303	1310.40	19.80
304	1310.78	29.89
305	1301.20	29.66
307	1271.95	59.86
309	1320.97	9.89
310	1311.56	19.46
311	1320.37	29.83
312	1320.61	19.73
313	1320.26	19.54
315	1321.01	9.87
316	1270.77	59.50
317	1320.69	9.94
319	1330.45	19.95
320	1320.80	19.70
321	1300.40	23.66
322	1310.81	29.95
323	1320.74	9.52
324	1311.19	19.79
325	1310.98	19.31
326	1330.84	9.99
327	1313.98	9.54
328	1290.83	50.00
329	1320.17	19.97
330	1310.42	19.20
331	1311.53	19.77
333	1310.95	19.73
334	1300.00	29.61
335	1291.18	49.95
336	1340.21	9.92
337	1340.27	8.12
338	1300.80	29.97
339	1330.98	9.74
340	1310.16	9.97
341	1280.40	49.62
342	1311.10	19.84
343	1300.27	29.21
345	1310.80	20.00
348	1320.05	29.99
349	1330.89	9.52
351	1330.40	19.66
352	1290.88	39.82
353	1320.47	19.87
354	1310.02	19.88
355	1310.71	29.97
356	1320.16	19.74
357	1330.09	9.79
358	1300.32	29.31
359	1310.17	29.77
360	1310.31	29.70
363	1300.63	29.70
364	1310.27	8.97
365	1311.58	29.73
366	1320.06	19.95
367	1310.56	28.31
369	1291.05	29.82
370	1310.16	19.78
371	1310.77	29.95
372	1301.16	29.99
374	1320.13	19.82
375	1300.99	39.89
376	1300.23	27.67
380	1340.53	9.92
381	1320.25	9.87
382	1300.13	39.77
383	1301.06	29.76
385	1310.18	19.74
386	1300.65	29.88
388	1300.63	29.54
389	1311.17	29.89
390	1320.82	19.86
391	1320.11	9.99
393	1300.12	27.81
394	1300.83	19.74
395	1300.95	39.55
397	1320.20	29.66
398	1300.18	19.77
399	1320.33	19.85
401	1320.97	19.62
402	1311.37	19.21
403	1310.66	19.87
404	1321.27	9.84
405	1310.25	39.79
406	1330.03	9.97
408	1320.83	19.84
410	1330.87	19.64
411	1321.12	9.83
412	1290.80	39.27
413	1320.39	29.61
415	1310.71	29.71
416	1340.18	9.74
418	1320.07	19.85
419	1330.94	19.88
420	1290.75	29.69
421	1310.04	29.85
423	1301.36	29.71
424	1300.09	29.53
426	1300.65	29.97
427	1321.20	19.93
428	1340.82	10.00
429	1320.18	19.98
431	1340.01	10.00
432	1310.57	18.96
433	1301.28	19.64
434	1320.28	19.77
435	1309.92	9.96
437	1310.40	15.81
439	1311.09	18.71
442	1330.10	19.92
443	1310.74	19.86
445	1300.85	19.78
446	1300.16	39.58
447	1290.65	39.36
449	1320.63	19.98
450	1291.46	39.75
458	1330.54	9.83
459	1331.12	9.95
460	1321.12	19.85
461	1311.04	29.97
462	1311.03	19.73
463	1310.73	19.78
464	1320.20	9.39
465	1320.42	19.85
466	1320.31	19.66
467	1331.04	19.89
468	1320.84	19.67
471	1300.97	29.62
473	1310.99	29.93
474	1300.34	39.89
475	1301.14	19.96
476	1310.29	29.77
477	1331.17	9.97
478	1310.88	19.07
480	1291.85	39.96
483	1291.67	39.56
486	1300.64	29.90
487	1310.09	29.55
489	1330.03	9.97
490	1290.58	38.62
491	1310.80	29.32
492	1320.44	29.83
493	1310.23	19.70
494	1311.54	28.25
495	1301.43	39.77
496	1320.43	9.84
497	1290.18	29.80
498	1311.13	29.74
499	1321.15	9.85
501	1300.37	29.82
502	1300.04	29.55
503	1330.86	19.79
504	1300.88	39.86
505	1300.80	19.99
506	1330.33	9.87
507	1291.78	39.44
508	1311.32	19.24
509	1301.84	29.57
510	1320.36	19.84
511	1281.05	49.34
513	1311.28	29.68
514	1320.82	9.81
516	1301.02	29.75
517	1310.48	9.97
519	1320.24	19.86
521	1290.34	39.72
522	1310.40	19.86
523	1301.70	29.60
524	1310.08	19.89
526	1311.19	19.75
527	1321.08	29.74
529	1330.16	9.71
530	1300.53	29.89
531	1320.96	19.69
532	1320.17	8.27
533	1311.17	19.96
534	1320.50	19.47
535	1310.85	29.83
537	1311.54	19.68
539	1330.42	9.80
541	1310.33	29.53
542	1340.42	9.87
544	1320.95	8.36
545	1311.39	29.44
546	1310.24	18.20
547	1292.93	39.60
548	1321.33	9.99
549	1310.23	19.68
551	1301.09	27.49
553	1331.41	9.86
555	1310.85	19.95
558	1330.89	9.87
560	1310.18	29.48
561	1311.30	18.87
562	1311.06	29.90
564	1321.26	19.64
565	1320.62	19.99
566	1301.07	29.93
567	1310.85	15.45
568	1340.65	9.93
570	1291.46	39.36
571	1330.45	9.81
572	1331.11	9.80
575	1290.14	27.47
576	1330.67	19.95
577	1330.38	9.19
579	1310.45	29.86
580	1311.39	29.23
581	1310.64	19.88
582	1310.41	19.08
584	1330.47	8.31
586	1300.11	39.93
588	1320.59	19.91
589	1330.49	19.93
591	1320.19	9.94
592	1291.16	39.48
593	1300.11	39.35
594	1310.11	29.66
595	1300.06	27.32
596	1320.97	29.84
597	1290.74	49.78
598	1301.07	39.39
600	1310.51	11.64
602	1320.11	19.81
603	1290.62	27.47
604	1310.93	29.63
605	1300.27	29.92
606	1330.38	9.85
607	1310.48	29.84
608	1330.98	19.64
609	1320.30	29.88
610	1300.06	39.52
611	1320.67	9.91
612	1320.60	19.89
613	1310.60	19.67
614	1290.77	39.82
615	1311.50	19.33
616	1320.41	19.34
617	1320.17	19.17
619	1301.61	29.55
620	1291.10	38.84
621	1330.13	9.88
624	1330.20	19.65
625	1300.55	29.99
629	1300.77	19.60
630	1320.93	9.90
631	1300.34	39.86
632	1321.03	9.98
633	1330.32	9.77
635	1320.32	29.89
636	1321.42	19.78
637	1301.13	39.70
639	1321.12	10.23
640	1310.40	19.95
642	1291.05	39.74
643	1330.92	9.88
644	1330.90	9.92
645	1320.12	19.84
646	1291.57	19.34
647	1330.66	9.84
648	1320.72	19.66
649	1320.08	9.04
650	1310.03	29.93
651	1320.16	19.72
653	1311.35	29.53
654	1300.41	29.76
655	1330.27	9.91
656	1330.17	9.98
658	1290.71	39.86
659	1330.80	19.92
660	1310.22	29.84
661	1320.32	18.69
662	1300.36	29.68
665	1310.01	19.70
668	1307.35	9.99
669	1300.44	29.99
671	1310.13	29.69
672	1320.59	19.78
673	1291.39	39.34
675	1290.95	39.76
676	1291.78	29.55
678	1301.24	39.41
679	1300.26	29.61
681	1291.50	49.30
682	1330.89	9.81
683	1300.20	29.95
686	1310.12	19.81
687	1310.43	9.98
689	1290.13	39.66
690	1320.74	29.69
692	1330.01	9.95
694	1310.86	7.59
695	1330.47	10.00
697	1310.64	19.86
698	1340.07	9.70
699	1310.06	9.97
701	1330.94	8.74
702	1320.36	19.72
704	1311.53	19.87
705	1321.03	19.82
706	1320.97	19.57
709	1340.60	9.92
710	1331.11	19.77
711	1310.16	29.76
712	1320.92	19.94
713	1320.02	19.87
715	1300.94	39.98
716	1310.17	19.91
718	1320.25	29.97
721	1300.07	39.85
722	1300.09	29.97
723	1310.14	9.84
724	1310.01	19.72
725	1330.30	9.71
726	1310.04	9.90
728	1320.47	19.77
730	1311.10	19.79
731	1320.40	19.93
733	1330.00	9.99
735	1310.19	19.68
736	1300.20	29.66
737	1331.08	9.96
738	1321.19	19.88
740	1291.89	39.69
743	1301.69	29.66
745	1330.12	9.85
746	1290.19	49.53
747	1330.79	9.95
748	1310.48	39.78
749	1300.80	29.71
750	1330.41	19.86
751	1320.51	29.54
753	1310.46	19.42
754	1321.14	9.25
755	1310.53	29.46
757	1300.68	29.95
759	1290.17	39.97
760	1311.12	19.99
761	1330.81	9.86
762	1320.29	28.43
764	1320.17	19.47
765	1330.05	19.91
766	1320.02	9.83
767	1320.08	18.95
768	1320.93	29.99
769	1320.67	9.77
770	1320.38	9.86
771	1300.85	29.96
773	1321.36	18.83
774	1320.17	8.30
776	1310.77	29.63
778	1291.21	39.91
779	1340.33	9.88
780	1321.31	9.76
781	1300.17	19.94
783	1310.10	29.45
785	1320.33	19.86
786	1310.52	29.78
788	1281.27	49.38
789	1301.30	29.54
790	1300.05	29.61
791	1300.28	39.85
792	1300.46	16.76
795	1321.18	19.99
796	1330.47	9.94
797	1320.48	19.72
798	1320.83	29.62
800	1301.54	29.89
801	1310.05	19.90
802	1310.80	29.78
803	1310.41	29.85
804	1310.19	19.72
805	1330.09	19.98
807	1310.47	29.93
808	1300.73	29.18
809	1320.25	9.88
810	1290.63	39.98
811	1310.56	29.99
812	1321.60	19.81
813	1270.94	49.87
814	1311.17	29.69
815	1330.47	9.97
816	1311.23	19.46
818	1290.31	19.84
819	1310.09	9.99
820	1290.07	49.62
821	1300.29	9.96
822	1321.08	29.66
823	1280.68	26.93
824	1300.56	39.35
825	1330.94	19.93
828	1330.34	9.84
829	1331.10	9.49
831	1310.69	19.99
832	1300.41	29.61
834	1311.60	19.82
836	1321.05	29.59
837	1330.95	9.98
838	1311.13	18.89
839	1311.11	19.73
840	1331.01	9.91
842	1301.90	29.65
843	1330.43	9.86
844	1300.76	39.80
845	1320.38	6.81
846	1310.74	29.36
847	1290.98	29.91
848	1290.69	39.49
849	1310.62	19.88
850	1300.32	29.57
851	1311.32	19.84
853	1310.50	2.57
854	1320.82	19.84
856	1311.28	29.52
859	1310.14	30.00
860	1290.26	29.93
861	1290.26	39.88
862	1300.41	29.77
863	1320.03	17.69
864	1310.96	29.16
865	1320.58	19.87
866	1310.50	19.76
868	1310.43	2.06
871	1310.25	29.98
873	1310.12	19.76
874	1313.55	19.97
875	1300.31	29.64
876	1310.23	29.68
877	1311.11	19.59
879	1310.14	19.84
883	1310.46	29.23
884	1320.04	9.87
885	1310.03	29.85
887	1321.31	19.78
889	1320.13	19.91
890	1300.59	19.83
891	1320.92	29.68
892	1291.61	29.59
893	1290.83	47.42
894	1300.61	19.60
896	1331.06	9.53
897	1321.30	19.70
900	1310.13	29.92
901	1311.00	39.58
902	1320.98	19.85
903	1310.48	29.98
905	1320.18	19.95
906	1300.13	29.28
907	1330.00	9.90
908	1301.39	29.87
909	1311.10	29.91
913	1320.30	19.82
914	1331.17	9.98
915	1300.63	39.74
916	1311.63	39.55
917	1321.27	19.70
920	1300.44	29.77
922	1320.18	19.80
923	1290.52	39.54
926	1320.45	19.81
927	1290.10	39.90
928	1330.55	9.79
929	1340.29	9.59
930	1301.57	29.68
932	1320.61	19.73
934	1320.58	19.94
935	1311.38	18.12
936	1300.09	29.30
940	1320.74	9.89
941	1330.82	8.79
942	1301.47	39.69
945	1330.25	19.80
946	1320.87	19.99
947	1330.84	19.91
948	1300.91	29.78
949	1320.81	29.48
950	1290.99	29.92
951	1301.38	39.66
953	1341.09	8.52
954	1310.49	29.98
956	1341.31	4.60
957	1330.45	17.23
958	1320.59	9.85
959	1311.00	19.88
960	1310.96	19.68
961	1310.62	9.87
962	1290.26	31.11
965	1320.18	19.83
966	1311.04	19.90
968	1300.95	29.82
969	1300.61	29.57
970	1330.55	9.90
971	1291.60	39.41
972	1300.28	39.72
976	1320.26	20.00
977	1300.95	19.76
979	1320.33	29.99
980	1300.92	39.95
981	1301.77	29.86
984	1310.41	19.94
985	1311.04	29.73
986	1320.87	29.51
989	1320.50	9.01
990	1300.63	29.62
991	1320.44	9.84
995	1321.15	19.83
996	1300.05	21.99
997	1320.78	19.46
998	1290.26	49.98
999	1310.34	28.97
